File: secondo-anno/scienze-materiali/Homework /HE1.txt
2 theta/deg	Intensity
   5.016711       449.0000
   5.083556       428.0000
   5.150402       412.0000
   5.217247       396.0000
   5.284091       402.0000
   5.350936       405.0000
   5.417782       405.0000
   5.484627       438.0000
   5.551472       410.0000
   5.618317       451.0000
   5.685162       429.0000
   5.752007       421.0000
   5.818852       402.0000
   5.885697       420.0000
   5.952542       393.0000
   6.019387       400.0000
   6.086232       374.0000
   6.153078       384.0000
   6.219923       403.0000
   6.286767       384.0000
   6.353613       368.0000
   6.420458       398.0000
   6.487303       424.0000
   6.554148       386.0000
   6.620993       399.0000
   6.687838       392.0000
   6.754683       400.0000
   6.821528       390.0000
   6.888373       410.0000
   6.955218       365.0000
   7.022063       394.0000
   7.088908       392.0000
   7.155754       377.0000
   7.222599       369.0000
   7.289444       353.0000
   7.356289       397.0000
   7.423134       376.0000
   7.489979       387.0000
   7.556824       405.0000
   7.623669       357.0000
   7.690514       367.0000
   7.757360       369.0000
   7.824204       407.0000
   7.891049       442.0000
   7.957894       416.0000
   8.024739       417.0000
   8.091585       428.0000
   8.158430       382.0000
   8.225275       397.0000
   8.292120       380.0000
   8.358965       402.0000
   8.425810       391.0000
   8.492655       399.0000
   8.559500       401.0000
   8.626345       402.0000
   8.693191       425.0000
   8.760036       396.0000
   8.826880       364.0000
   8.893725       396.0000
   8.960570       398.0000
   9.027416       414.0000
   9.094261       422.0000
   9.161106       395.0000
   9.227951       437.0000
   9.294796       375.0000
   9.361641       448.0000
   9.428486       398.0000
   9.495331       402.0000
   9.562176       411.0000
   9.629021       394.0000
   9.695867       406.0000
   9.762712       404.0000
   9.829556       425.0000
   9.896402       394.0000
   9.963247       422.0000
   10.03009       404.0000
   10.09694       399.0000
   10.16378       418.0000
   10.23063       433.0000
   10.29747       434.0000
   10.36432       396.0000
   10.43116       412.0000
   10.49801       401.0000
   10.56485       399.0000
   10.63170       444.0000
   10.69854       414.0000
   10.76539       425.0000
   10.83223       419.0000
   10.89908       403.0000
   10.96592       426.0000
   11.03277       406.0000
   11.09961       422.0000
   11.16646       482.0000
   11.23330       416.0000
   11.30015       460.0000
   11.36699       423.0000
   11.43384       461.0000
   11.50068       440.0000
   11.56753       466.0000
   11.63437       484.0000
   11.70122       457.0000
   11.76806       440.0000
   11.83491       473.0000
   11.90175       475.0000
   11.96860       473.0000
   12.03544       473.0000
   12.10229       461.0000
   12.16913       442.0000
   12.23598       436.0000
   12.30282       500.0000
   12.36967       454.0000
   12.43651       450.0000
   12.50336       431.0000
   12.57020       475.0000
   12.63705       440.0000
   12.70389       425.0000
   12.77074       445.0000
   12.83759       485.0000
   12.90443       486.0000
   12.97128       443.0000
   13.03812       443.0000
   13.10497       492.0000
   13.17181       515.0000
   13.23866       464.0000
   13.30550       450.0000
   13.37235       466.0000
   13.43919       468.0000
   13.50604       441.0000
   13.57288       455.0000
   13.63973       451.0000
   13.70657       449.0000
   13.77342       433.0000
   13.84026       500.0000
   13.90711       418.0000
   13.97395       459.0000
   14.04080       438.0000
   14.10764       463.0000
   14.17449       449.0000
   14.24133       441.0000
   14.30818       446.0000
   14.37502       444.0000
   14.44187       430.0000
   14.50871       423.0000
   14.57556       431.0000
   14.64240       448.0000
   14.70925       451.0000
   14.77609       418.0000
   14.84294       456.0000
   14.90978       399.0000
   14.97663       439.0000
   15.04347       452.0000
   15.11032       439.0000
   15.17716       411.0000
   15.24401       471.0000
   15.31085       406.0000
   15.37770       449.0000
   15.44454       436.0000
   15.51139       447.0000
   15.57823       461.0000
   15.64508       464.0000
   15.71192       442.0000
   15.77877       419.0000
   15.84561       440.0000
   15.91246       470.0000
   15.97930       468.0000
   16.04615       470.0000
   16.11299       445.0000
   16.17984       418.0000
   16.24669       472.0000
   16.31353       483.0000
   16.38037       412.0000
   16.44722       478.0000
   16.51406       446.0000
   16.58091       444.0000
   16.64775       436.0000
   16.71460       421.0000
   16.78144       406.0000
   16.84829       460.0000
   16.91513       481.0000
   16.98198       458.0000
   17.04882       461.0000
   17.11567       459.0000
   17.18251       432.0000
   17.24936       478.0000
   17.31620       454.0000
   17.38305       440.0000
   17.44989       484.0000
   17.51674       447.0000
   17.58358       422.0000
   17.65043       416.0000
   17.71728       428.0000
   17.78412       450.0000
   17.85097       440.0000
   17.91781       442.0000
   17.98466       448.0000
   18.05150       434.0000
   18.11835       463.0000
   18.18519       410.0000
   18.25204       437.0000
   18.31888       465.0000
   18.38573       426.0000
   18.45257       468.0000
   18.51942       470.0000
   18.58626       463.0000
   18.65311       463.0000
   18.71995       451.0000
   18.78680       466.0000
   18.85364       474.0000
   18.92049       469.0000
   18.98733       431.0000
   19.05418       423.0000
   19.12102       468.0000
   19.18787       437.0000
   19.25471       427.0000
   19.32156       456.0000
   19.38840       451.0000
   19.45525       443.0000
   19.52209       455.0000
   19.58894       446.0000
   19.65578       405.0000
   19.72263       445.0000
   19.78947       426.0000
   19.85632       398.0000
   19.92316       394.0000
   19.99001       446.0000
   20.05685       475.0000
   20.12370       483.0000
   20.19054       439.0000
   20.25739       449.0000
   20.32423       449.0000
   20.39108       449.0000
   20.45792       463.0000
   20.52477       447.0000
   20.59161       444.0000
   20.65846       415.0000
   20.72530       445.0000
   20.79215       445.0000
   20.85899       444.0000
   20.92584       458.0000
   20.99268       423.0000
   21.05953       456.0000
   21.12637       454.0000
   21.19322       415.0000
   21.26006       399.0000
   21.32691       437.0000
   21.39375       421.0000
   21.46060       424.0000
   21.52744       427.0000
   21.59429       453.0000
   21.66114       439.0000
   21.72798       474.0000
   21.79483       422.0000
   21.86167       415.0000
   21.92852       424.0000
   21.99536       450.0000
   22.06221       442.0000
   22.12905       410.0000
   22.19590       441.0000
   22.26274       459.0000
   22.32959       422.0000
   22.39643       409.0000
   22.46328       442.0000
   22.53012       473.0000
   22.59697       437.0000
   22.66381       417.0000
   22.73066       409.0000
   22.79750       433.0000
   22.86435       414.0000
   22.93119       404.0000
   22.99804       417.0000
   23.06488       437.0000
   23.13173       438.0000
   23.19857       432.0000
   23.26542       428.0000
   23.33226       420.0000
   23.39911       403.0000
   23.46595       422.0000
   23.53279       444.0000
   23.59964       456.0000
   23.66649       436.0000
   23.73333       437.0000
   23.80018       445.0000
   23.86702       458.0000
   23.93387       480.0000
   24.00071       437.0000
   24.06756       445.0000
   24.13440       448.0000
   24.20125       406.0000
   24.26809       442.0000
   24.33494       427.0000
   24.40178       461.0000
   24.46863       451.0000
   24.53547       453.0000
   24.60232       446.0000
   24.66916       425.0000
   24.73601       466.0000
   24.80285       440.0000
   24.86970       443.0000
   24.93654       411.0000
   25.00339       414.0000
   25.07023       422.0000
   25.13708       444.0000
   25.20392       468.0000
   25.27077       404.0000
   25.33761       455.0000
   25.40446       454.0000
   25.47131       437.0000
   25.53815       455.0000
   25.60500       399.0000
   25.67184       406.0000
   25.73869       428.0000
   25.80553       452.0000
   25.87238       430.0000
   25.93922       446.0000
   26.00607       427.0000
   26.07291       434.0000
   26.13976       425.0000
   26.20660       398.0000
   26.27345       447.0000
   26.34029       439.0000
   26.40714       445.0000
   26.47398       482.0000
   26.54082       423.0000
   26.60767       405.0000
   26.67451       445.0000
   26.74136       438.0000
   26.80820       463.0000
   26.87505       404.0000
   26.94189       404.0000
   27.00874       424.0000
   27.07558       416.0000
   27.14243       428.0000
   27.20927       422.0000
   27.27612       422.0000
   27.34296       425.0000
   27.40981       443.0000
   27.47666       465.0000
   27.54350       420.0000
   27.61035       407.0000
   27.67719       423.0000
   27.74404       443.0000
   27.81088       414.0000
   27.87773       410.0000
   27.94457       443.0000
   28.01142       404.0000
   28.07826       440.0000
   28.14511       433.0000
   28.21195       460.0000
   28.27880       424.0000
   28.34564       429.0000
   28.41249       450.0000
   28.47933       437.0000
   28.54618       475.0000
   28.61302       444.0000
   28.67987       419.0000
   28.74671       447.0000
   28.81356       410.0000
   28.88040       465.0000
   28.94725       415.0000
   29.01409       482.0000
   29.08094       448.0000
   29.14778       401.0000
   29.21463       449.0000
   29.28148       461.0000
   29.34832       418.0000
   29.41516       466.0000
   29.48201       407.0000
   29.54885       436.0000
   29.61570       491.0000
   29.68254       416.0000
   29.74939       418.0000
   29.81623       458.0000
   29.88308       482.0000
   29.94992       436.0000
   30.01677       443.0000
   30.08361       467.0000
   30.15046       449.0000
   30.21730       458.0000
   30.28415       421.0000
   30.35099       484.0000
   30.41784       451.0000
   30.48468       485.0000
   30.55153       465.0000
   30.61837       481.0000
   30.68522       467.0000
   30.75206       460.0000
   30.81891       477.0000
   30.88575       453.0000
   30.95260       447.0000
   31.01944       453.0000
   31.08629       454.0000
   31.15313       467.0000
   31.21998       499.0000
   31.28683       442.0000
   31.35367       499.0000
   31.42052       459.0000
   31.48736       476.0000
   31.55421       470.0000
   31.62105       470.0000
   31.68790       477.0000
   31.75474       474.0000
   31.82159       481.0000
   31.88843       453.0000
   31.95528       486.0000
   32.02212       482.0000
   32.08897       511.0000
   32.15581       470.0000
   32.22266       494.0000
   32.28950       478.0000
   32.35635       528.0000
   32.42319       476.0000
   32.49004       539.0000
   32.55688       492.0000
   32.62373       482.0000
   32.69057       529.0000
   32.75742       528.0000
   32.82426       524.0000
   32.89111       504.0000
   32.95795       519.0000
   33.02480       584.0000
   33.09164       499.0000
   33.15849       535.0000
   33.22533       536.0000
   33.29218       505.0000
   33.35902       525.0000
   33.42587       549.0000
   33.49271       563.0000
   33.55956       532.0000
   33.62640       550.0000
   33.69325       519.0000
   33.76009       549.0000
   33.82694       538.0000
   33.89378       516.0000
   33.96063       587.0000
   34.02747       563.0000
   34.09432       587.0000
   34.16116       551.0000
   34.22801       586.0000
   34.29485       583.0000
   34.36170       577.0000
   34.42854       585.0000
   34.49539       616.0000
   34.56223       607.0000
   34.62908       576.0000
   34.69592       589.0000
   34.76277       660.0000
   34.82961       629.0000
   34.89646       659.0000
   34.96331       647.0000
   35.03015       606.0000
   35.09700       671.0000
   35.16384       686.0000
   35.23069       635.0000
   35.29753       611.0000
   35.36438       663.0000
   35.43122       660.0000
   35.49807       704.0000
   35.56491       695.0000
   35.63176       755.0000
   35.69860       755.0000
   35.76545       781.0000
   35.83229       878.0000
   35.89914       950.0000
   35.96598       931.0000
   36.03283       1028.000
   36.09967       1040.000
   36.16652       1111.000
   36.23336       1313.000
   36.30021       1427.000
   36.36705       1670.000
   36.43390       1902.000
   36.50074       2394.000
   36.56758       2778.000
   36.63443       3347.000
   36.70127       3985.000
   36.76812       4560.000
   36.83496       5361.000
   36.90181       5649.000
   36.96866       6132.000
   37.03550       6235.000
   37.10235       5984.000
   37.16919       5549.000
   37.23604       4913.000
   37.30288       4359.000
   37.36973       3441.000
   37.43657       3018.000
   37.50342       2456.000
   37.57026       2112.000
   37.63711       1765.000
   37.70395       1512.000
   37.77080       1326.000
   37.83764       1186.000
   37.90449       1117.000
   37.97133       1059.000
   38.03818       952.0000
   38.10502       902.0000
   38.17187       811.0000
   38.23871       805.0000
   38.30556       830.0000
   38.37241       752.0000
   38.43925       761.0000
   38.50610       793.0000
   38.57294       706.0000
   38.63979       685.0000
   38.70663       724.0000
   38.77348       714.0000
   38.84032       660.0000
   38.90717       661.0000
   38.97401       693.0000
   39.04086       662.0000
   39.10770       690.0000
   39.17455       622.0000
   39.24139       606.0000
   39.30824       634.0000
   39.37508       590.0000
   39.44193       630.0000
   39.50877       619.0000
   39.57561       636.0000
   39.64246       592.0000
   39.70930       619.0000
   39.77615       610.0000
   39.84299       623.0000
   39.90984       652.0000
   39.97668       609.0000
   40.04353       606.0000
   40.11037       616.0000
   40.17722       615.0000
   40.24407       630.0000
   40.31091       583.0000
   40.37776       639.0000
   40.44460       575.0000
   40.51145       561.0000
   40.57829       587.0000
   40.64514       583.0000
   40.71198       579.0000
   40.77883       577.0000
   40.84567       543.0000
   40.91252       572.0000
   40.97936       585.0000
   41.04621       562.0000
   41.11305       546.0000
   41.17990       598.0000
   41.24674       556.0000
   41.31359       523.0000
   41.38043       545.0000
   41.44728       531.0000
   41.51412       552.0000
   41.58097       467.0000
   41.64781       609.0000
   41.71466       548.0000
   41.78150       569.0000
   41.84835       548.0000
   41.91519       527.0000
   41.98204       557.0000
   42.04888       536.0000
   42.11573       497.0000
   42.18258       520.0000
   42.24942       519.0000
   42.31627       523.0000
   42.38311       525.0000
   42.44995       501.0000
   42.51680       493.0000
   42.58364       487.0000
   42.65049       523.0000
   42.71733       498.0000
   42.78418       477.0000
   42.85102       507.0000
   42.91787       477.0000
   42.98471       551.0000
   43.05156       528.0000
   43.11840       556.0000
   43.18525       507.0000
   43.25209       503.0000
   43.31894       514.0000
   43.38578       493.0000
   43.45263       500.0000
   43.51947       483.0000
   43.58632       521.0000
   43.65316       495.0000
   43.72001       548.0000
   43.78685       484.0000
   43.85370       479.0000
   43.92054       507.0000
   43.98739       477.0000
   44.05424       514.0000
   44.12108       549.0000
   44.18793       481.0000
   44.25477       543.0000
   44.32162       495.0000
   44.38846       511.0000
   44.45531       493.0000
   44.52215       477.0000
   44.58900       532.0000
   44.65584       528.0000
   44.72269       478.0000
   44.78953       507.0000
   44.85638       523.0000
   44.92322       497.0000
   44.99007       516.0000
   45.05691       493.0000
   45.12376       463.0000
   45.19060       500.0000
   45.25745       523.0000
   45.32429       479.0000
   45.39114       503.0000
   45.45798       495.0000
   45.52483       447.0000
   45.59167       473.0000
   45.65852       447.0000
   45.72536       474.0000
   45.79221       464.0000
   45.85905       534.0000
   45.92590       453.0000
   45.99274       486.0000
   46.05959       449.0000
   46.12643       486.0000
   46.19328       479.0000
   46.26012       494.0000
   46.32697       464.0000
   46.39381       483.0000
   46.46066       460.0000
   46.52750       492.0000
   46.59435       484.0000
   46.66119       450.0000
   46.72804       483.0000
   46.79488       438.0000
   46.86173       522.0000
   46.92857       496.0000
   46.99542       472.0000
   47.06226       499.0000
   47.12911       509.0000
   47.19595       537.0000
   47.26280       515.0000
   47.32964       493.0000
   47.39649       516.0000
   47.46333       529.0000
   47.53018       493.0000
   47.59702       519.0000
   47.66387       521.0000
   47.73071       492.0000
   47.79756       528.0000
   47.86441       513.0000
   47.93125       473.0000
   47.99810       500.0000
   48.06494       512.0000
   48.13179       506.0000
   48.19863       487.0000
   48.26548       510.0000
   48.33232       510.0000
   48.39917       438.0000
   48.46601       445.0000
   48.53286       442.0000
   48.59970       498.0000
   48.66655       511.0000
   48.73339       475.0000
   48.80024       482.0000
   48.86708       502.0000
   48.93393       492.0000
   49.00077       467.0000
   49.06762       525.0000
   49.13446       484.0000
   49.20131       540.0000
   49.26815       473.0000
   49.33500       506.0000
   49.40184       540.0000
   49.46869       503.0000
   49.53553       439.0000
   49.60238       461.0000
   49.66922       499.0000
   49.73607       477.0000
   49.80291       520.0000
   49.86976       512.0000
   49.93660       463.0000
   50.00345       481.0000
   50.07029       543.0000
   50.13714       501.0000
   50.20398       535.0000
   50.27083       560.0000
   50.33767       533.0000
   50.40452       548.0000
   50.47136       553.0000
   50.53821       547.0000
   50.60505       565.0000
   50.67190       568.0000
   50.73874       587.0000
   50.80559       613.0000
   50.87243       656.0000
   50.93928       624.0000
   51.00612       631.0000
   51.07297       666.0000
   51.13981       707.0000
   51.20666       648.0000
   51.27350       722.0000
   51.34035       753.0000
   51.40719       803.0000
   51.47404       806.0000
   51.54088       863.0000
   51.60773       848.0000
   51.67458       964.0000
   51.74142       1029.000
   51.80827       1104.000
   51.87511       1122.000
   51.94196       1259.000
   52.00880       1386.000
   52.07565       1563.000
   52.14249       1754.000
   52.20934       1952.000
   52.27618       2289.000
   52.34303       2660.000
   52.40987       2880.000
   52.47672       3504.000
   52.54356       4162.000
   52.61040       4751.000
   52.67725       5589.000
   52.74409       6396.000
   52.81094       7169.000
   52.87778       8094.000
   52.94463       8853.000
   53.01147       9635.000
   53.07832       10168.00
   53.14516       10700.00
   53.21201       10925.00
   53.27885       10630.00
   53.34570       10198.00
   53.41254       9775.000
   53.47939       8830.000
   53.54624       7980.000
   53.61308       6683.000
   53.67993       5751.000
   53.74677       4934.000
   53.81362       4040.000
   53.88046       3321.000
   53.94731       2836.000
   54.01415       2380.000
   54.08100       2010.000
   54.14784       1818.000
   54.21469       1564.000
   54.28153       1326.000
   54.34838       1209.000
   54.41522       1101.000
   54.48207       1077.000
   54.54891       1043.000
   54.61576       930.0000
   54.68260       870.0000
   54.74945       859.0000
   54.81629       795.0000
   54.88314       865.0000
   54.94998       793.0000
   55.01683       824.0000
   55.08367       711.0000
   55.15052       791.0000
   55.21736       765.0000
   55.28421       731.0000
   55.35105       723.0000
   55.41790       644.0000
   55.48475       692.0000
   55.55159       690.0000
   55.61843       622.0000
   55.68528       650.0000
   55.75212       648.0000
   55.81897       610.0000
   55.88581       629.0000
   55.95266       597.0000
   56.01950       608.0000
   56.08635       630.0000
   56.15319       608.0000
   56.22004       575.0000
   56.28688       612.0000
   56.35373       632.0000
   56.42057       633.0000
   56.48742       553.0000
   56.55426       587.0000
   56.62111       611.0000
   56.68795       595.0000
   56.75480       562.0000
   56.82164       559.0000
   56.88849       603.0000
   56.95533       567.0000
   57.02218       549.0000
   57.08902       585.0000
   57.15587       573.0000
   57.22271       584.0000
   57.28956       572.0000
   57.35641       618.0000
   57.42325       598.0000
   57.49010       575.0000
   57.55694       562.0000
   57.62379       582.0000
   57.69063       549.0000
   57.75748       555.0000
   57.82432       568.0000
   57.89117       594.0000
   57.95801       551.0000
   58.02486       510.0000
   58.09170       526.0000
   58.15855       516.0000
   58.22539       545.0000
   58.29224       581.0000
   58.35908       582.0000
   58.42593       546.0000
   58.49277       535.0000
   58.55962       541.0000
   58.62646       568.0000
   58.69331       545.0000
   58.76015       477.0000
   58.82700       503.0000
   58.89384       530.0000
   58.96069       531.0000
   59.02753       538.0000
   59.09438       469.0000
   59.16122       507.0000
   59.22807       549.0000
   59.29491       524.0000
   59.36176       591.0000
   59.42860       559.0000
   59.49545       523.0000
   59.56229       508.0000
   59.62914       521.0000
   59.69598       557.0000
   59.76283       499.0000
   59.82967       497.0000
   59.89652       548.0000
   59.96336       547.0000
   60.03021       520.0000
   60.09705       518.0000
   60.16390       552.0000
   60.23074       489.0000
   60.29759       499.0000
   60.36443       547.0000
   60.43128       564.0000
   60.49812       514.0000
   60.56497       547.0000
   60.63181       561.0000
   60.69866       511.0000
   60.76550       461.0000
   60.83235       479.0000
   60.89919       512.0000
   60.96604       525.0000
   61.03288       484.0000
   61.09973       513.0000
   61.16658       555.0000
   61.23342       533.0000
   61.30027       522.0000
   61.36711       500.0000
   61.43396       508.0000
   61.50080       548.0000
   61.56765       547.0000
   61.63449       540.0000
   61.70134       551.0000
   61.76818       512.0000
   61.83503       487.0000
   61.90187       493.0000
   61.96872       481.0000
   62.03556       536.0000
   62.10241       457.0000
   62.16925       496.0000
   62.23610       528.0000
   62.30294       538.0000
   62.36979       527.0000
   62.43663       447.0000
   62.50348       471.0000
   62.57032       478.0000
   62.63717       469.0000
   62.70401       515.0000
   62.77085       499.0000
   62.83770       506.0000
   62.90454       521.0000
   62.97139       556.0000
   63.03824       488.0000
   63.10508       518.0000
   63.17193       527.0000
   63.23877       497.0000
   63.30562       479.0000
   63.37246       486.0000
   63.43931       477.0000
   63.50615       479.0000
   63.57300       509.0000
   63.63984       518.0000
   63.70669       555.0000
   63.77353       500.0000
   63.84038       477.0000
   63.90722       552.0000
   63.97407       553.0000
   64.04091       556.0000
   64.10776       465.0000
   64.17460       507.0000
   64.24145       518.0000
   64.30829       537.0000
   64.37514       547.0000
   64.44198       554.0000
   64.50883       510.0000
   64.57567       533.0000
   64.64252       532.0000
   64.70936       514.0000
   64.77621       552.0000
   64.84305       575.0000
   64.90990       547.0000
   64.97675       558.0000
   65.04359       602.0000
   65.11044       648.0000
   65.17728       621.0000
   65.24413       622.0000
   65.31097       635.0000
   65.37782       668.0000
   65.44466       748.0000
   65.51151       704.0000
   65.57835       769.0000
   65.64520       822.0000
   65.71204       964.0000
   65.77888       971.0000
   65.84573       1018.000
   65.91257       1129.000
   65.97942       1221.000
   66.04626       1349.000
   66.11311       1412.000
   66.17995       1515.000
   66.24680       1642.000
   66.31364       1655.000
   66.38049       1909.000
   66.44733       1855.000
   66.51418       1953.000
   66.58102       1957.000
   66.64787       1833.000
   66.71471       1865.000
   66.78156       1843.000
   66.84840       1722.000
   66.91525       1690.000
   66.98209       1562.000
   67.04894       1365.000
   67.11578       1303.000
   67.18263       1216.000
   67.24947       1156.000
   67.31632       999.0000
   67.38316       952.0000
   67.45001       851.0000
   67.51685       819.0000
   67.58370       723.0000
   67.65054       711.0000
   67.71739       746.0000
   67.78423       649.0000
   67.85108       652.0000
   67.91792       627.0000
   67.98477       612.0000
   68.05161       568.0000
   68.11846       608.0000
   68.18530       556.0000
   68.25215       630.0000
   68.31899       546.0000
   68.38584       565.0000
   68.45268       570.0000
   68.51953       554.0000
   68.58637       529.0000
   68.65322       524.0000
   68.72007       576.0000
   68.78691       518.0000
   68.85376       530.0000
   68.92060       523.0000
   68.98745       547.0000
   69.05429       540.0000
   69.12113       510.0000
   69.18798       508.0000
   69.25482       472.0000
   69.32167       478.0000
   69.38851       522.0000
   69.45536       491.0000
   69.52220       470.0000
   69.58905       535.0000
   69.65589       543.0000
   69.72274       475.0000
   69.78959       468.0000
   69.85643       528.0000
   69.92328       451.0000
   69.95670       516.0000